time,wind_speed,wind_angle,battery_voltage,battery_current,position_x,position_y,position_z,orientation_x,orientation_y,orientation_z,orientation_w,velocity_x,velocity_y,velocity_z,angular_x,angular_y,angular_z,linear_acceleration_x,linear_acceleration_y,linear_acceleration_z
0,1.299999952,354,25.7421627,0.095421284,-79.78280734,40.45904467,266.128119,0.000658211,0.016477346,-0.668771744,0.743285,0.000554811,-0.002376535,0.012342682,0.002316335,-0.001237326,5.60E-06,-0.211558329,-0.243358064,-9.80490766
0.1,1.299999952,0,25.7421627,0.103373058,-79.78280725,40.45904465,266.1366731,0.000635614,0.016462715,-0.668789625,0.743269205,-0.003934767,-0.001036099,0.010533442,0.002999852,-0.000388433,-0.00055635,-0.213125748,-0.244965135,-9.805147396
0.3,1.299999952,5,25.73965836,0.095421284,-79.78280725,40.45904466,266.1377341,0.000629702,0.016477246,-0.668791354,0.743267298,-0.003719023,-0.001381811,0.010437563,-0.002657943,0.003297268,0.00020336,-0.206743202,-0.244403674,-9.801281801
0.39,1.200000048,1,25.74466705,0.103373058,-79.78280716,40.45904466,266.1467965,0.000616101,0.016458992,-0.668774068,0.743283331,-0.011665678,0.000238882,0.009503215,-0.003193717,0.001582643,0.003142203,-0.212003941,-0.246127451,-9.806360693
0.6,1.200000048,4,25.74341393,0.103373058,-79.78280708,40.45904462,266.1560399,0.000608099,0.016459046,-0.668785512,0.74327302,-0.009177377,0.000199703,0.011275136,0.002165186,-0.002522701,0.002058045,-0.212869439,-0.246874342,-9.80648173
0.69,1.200000048,4,25.74466705,0.087469511,-79.78280708,40.45904463,266.1571705,0.000618913,0.016480459,-0.668782115,0.743275583,-0.008898489,4.40E-05,0.010977809,-0.003133541,0.000636635,0.003375208,-0.206820842,-0.244514205,-9.802420254
0.89,1.200000048,7,25.74341393,0.103373058,-79.78280699,40.4590446,266.1688489,0.000635443,0.016468855,-0.66876471,0.743291438,-0.009089882,2.40E-05,0.014197203,0.002060466,-0.001921277,-0.006825647,-0.20851224,-0.24613403,-9.80090641
1,1.200000048,17,25.7421627,0.111324832,-79.78280689,40.45904456,266.1814944,0.000636848,0.016477827,-0.668763041,0.743292689,-0.00447327,-5.23E-05,0.016712663,-0.001037035,-0.002814529,-0.003666518,-0.208235046,-0.2447696,-9.802001009
1.19,1.100000024,23,25.74591827,0.047710642,-79.78280689,40.45904456,266.1831554,0.00063609,0.016447589,-0.668769538,0.743287623,-0.004197807,-0.000489203,0.01631216,0.000903858,-7.86E-05,0.004695623,-0.211820302,-0.244624735,-9.804948006
1.29,1,31,25.74842262,0.095421284,-79.7828068,40.45904451,266.1967638,0.000644815,0.016464669,-0.668765545,0.743290842,-0.001564366,-0.000460547,0.017718506,-0.004103755,0.003994611,0.001106366,-0.208522034,-0.244045788,-9.801971773
1.49,1,34,25.75092697,0.023855321,-79.7828068,40.45904452,266.1985139,0.000648247,0.01647496,-0.668753684,0.743301213,-0.00139226,-0.000699995,0.017241737,0.004469358,-0.003238205,-0.006091406,-0.208816368,-0.243721487,-9.80253369
1.6,1,39,25.74842262,0.031807095,-79.7828067,40.45904448,266.2121106,0.000660367,0.016469855,-0.668747187,0.743307173,-0.003255691,-0.000462355,0.017454272,0.00513425,-0.000666031,-0.005697484,-0.208519768,-0.244963746,-9.804842171
1.8,0.899999976,42,25.73840714,0.015903547,-79.7828067,40.45904448,266.213851,0.000673418,0.016489731,-0.668751836,0.743302464,-0.003021055,-0.001070318,0.01721188,-0.003501194,0.003521083,0.007261259,-0.208683326,-0.243483706,-9.802361197
1.9,1,45,25.74091148,0,-79.78280659,40.45904442,266.228005,0.00067111,0.016510861,-0.668766439,0.743288875,0.001611502,0.001504172,0.017875527,-0.005880128,0.002696346,0.006415072,-0.209451065,-0.247029165,-9.802192798
2.09,1.100000024,51,25.75343132,0.015903547,-79.78280648,40.45904438,266.243344,0.000690762,0.016511196,-0.668765664,0.743289649,-0.00251166,0.001226841,0.018846895,-0.005189559,0.001387185,0.001321372,-0.210812407,-0.244050118,-9.805605817
2.2,1.100000024,55,25.74341393,0,-79.78280648,40.45904438,266.2452011,0.000708538,0.016515493,-0.668777764,0.743278682,-0.002136356,0.000981914,0.018286061,0.003358452,-0.002581167,-0.000888729,-0.208541622,-0.245187932,-9.80119
2.39,1.100000024,53,25.75092697,0.06361419,-79.78280637,40.45904432,266.2592724,0.000731015,0.016533433,-0.668756783,0.7432971,-2.17E-05,0.000407254,0.019635636,-0.000740451,-0.0058126,-0.005443575,-0.208583868,-0.243238032,-9.801228592
2.49,1.200000048,53,25.75343132,0.015903547,-79.78280625,40.45904426,266.2750709,0.000734894,0.016562827,-0.668754518,0.743298471,0.001440276,0.002936519,0.01960652,-0.000328164,-0.000960841,-0.004583019,-0.208660303,-0.243709756,-9.80080233
2.69,1.200000048,57,25.7471714,0.023855321,-79.78280625,40.45904426,266.277004,0.000736324,0.016560324,-0.668752253,0.743300498,0.001790163,0.002548797,0.019362826,-0.004913722,0.004302035,0.004200718,-0.208978263,-0.245129039,-9.805937939
2.79,1.200000048,57,25.75217819,0.039758869,-79.78280613,40.45904419,266.2933462,0.000712806,0.016572723,-0.668744206,0.743307531,0.002677071,0.001677787,0.019775551,-0.006533829,0.005136277,0.007246179,-0.210132303,-0.244683737,-9.803913633
3,1.299999952,59,25.74591827,0.015903547,-79.78280613,40.45904419,266.2952831,0.000709096,0.016566936,-0.668748915,0.743303418,0.003103892,0.001677844,0.019248189,0.006641314,-0.000784225,-0.005855594,-0.211190192,-0.245329471,-9.804897135
3.1,1.399999976,59,25.74466705,0.023855321,-79.78280601,40.45904415,266.3123418,0.000692272,0.016571809,-0.668761492,0.743292093,-0.001220949,0.001701128,0.019563761,0.00046508,-0.002492186,-0.003247431,-0.209532543,-0.245853107,-9.800957866
3.29,1.5,60,25.75092697,0.015903547,-79.78280601,40.45904415,266.314294,0.000695633,0.016599208,-0.668758512,0.74329406,-0.000854546,0.00121743,0.019423382,-0.00387639,-0.000634001,0.002293678,-0.205951964,-0.245127724,-9.802130232
3.39,1.5,63,25.74466705,0.007951774,-79.78280589,40.45904407,266.3317949,0.000709726,0.016622923,-0.668772757,0.743280768,0.004462566,0.001230864,0.019991747,-0.003083797,-0.00232748,-0.00201145,-0.212155933,-0.244597948,-9.806114525
3.6,1.5,61,25.7471714,0.023855321,-79.78280578,40.45904402,266.3488332,0.000708441,0.016618714,-0.66877687,0.743277133,0.000317532,0.001214232,0.019859259,-0.003579175,-0.003057104,-0.000959559,-0.210713041,-0.243728595,-9.805210546
3.7,1.399999976,60,25.7471714,-0.007951774,-79.78280578,40.45904402,266.3507862,0.00072654,0.016609551,-0.668781996,0.743272722,0.001018591,0.001119501,0.019364384,0.0033803,-0.000382305,0.000100751,-0.208538991,-0.245788441,-9.799758602
3.89,1.5,58,25.74842262,0.015903547,-79.78280565,40.45904396,266.3662499,0.000719976,0.016619954,-0.668793082,0.74326247,0.001963809,0.004952178,0.020071859,0.002432766,0.000844189,-0.000947393,-0.207136208,-0.244981763,-9.802326114
3.99,1.5,55,25.75593567,0.039758869,-79.78280551,40.45904391,266.3823713,0.000733505,0.016625734,-0.668802798,0.743253648,-0.001008972,0.008101519,0.016097453,0.00352804,-0.004416395,-0.007362646,-0.20874125,-0.246519891,-9.805604648
4.19,1.399999976,52,25.7471714,0.023855321,-79.7828055,40.45904391,266.3839561,0.000728186,0.016626822,-0.668793619,0.743261874,-0.000591412,0.007652345,0.015880564,-0.007378703,0.004979725,0.007619044,-0.209300426,-0.247608917,-9.800133408
4.29,1.5,46,25.74967575,0.015903547,-79.78280538,40.45904384,266.4023412,0.000730348,0.01661106,-0.668793619,0.743262231,0.001183683,0.004601091,0.018255608,-0.002481603,0.002136237,0.003457428,-0.21146291,-0.243970432,-9.804802995
4.49,1.5,46,25.74591827,0.015903547,-79.78280537,40.45904384,266.4041218,0.00072442,0.016618285,-0.668814838,0.743243039,0.00168657,0.004381261,0.01766281,0.000685622,-0.000177925,0.000752483,-0.213428634,-0.245104536,-9.804440467
4.6,1.600000024,40,25.74842262,0.015903547,-79.78280526,40.45904379,266.4218582,0.000733574,0.016608121,-0.668813765,0.743244112,-0.001160946,0.002925638,0.018437916,-0.005902039,-0.001195047,0.006013358,-0.210444526,-0.244749884,-9.802454168
4.8,1.600000024,40,25.74842262,0.015903547,-79.78280525,40.45904379,266.4236663,0.000734151,0.016606523,-0.668813884,0.743244052,-0.000542412,0.002891736,0.017800061,0.006083536,-0.005889372,-0.002074994,-0.211910203,-0.244362469,-9.803247635
4.89,1.600000024,35,25.74967575,0.023855321,-79.78280514,40.45904373,266.4416464,0.000738516,0.016607979,-0.668812692,0.743245065,0.001185205,0.001442439,0.018660539,0.003556988,-0.003095357,0.000607541,-0.212314282,-0.244736435,-9.805202944
5.1,1.600000024,30,25.75092697,0.015903547,-79.78280502,40.45904366,266.458029,0.000736795,0.016611774,-0.668815732,0.743242323,0.001801746,0.001041813,0.019754432,0.000171597,0.000405539,-0.001374992,-0.207373166,-0.244299338,-9.80103271
5.19,1.799999952,36,25.74341393,0.007951774,-79.78280502,40.45904366,266.4599784,0.000735832,0.016610729,-0.668817103,0.743241072,0.002336118,0.000845518,0.019498677,-0.002805966,7.15E-05,0.003772136,-0.209754134,-0.244694884,-9.806561837
5.39,1.799999952,35,25.75092697,0.023855321,-79.7828049,40.45904359,266.4784523,0.000706357,0.016619423,-0.668814838,0.743243039,0.003389682,0.000943604,0.020116618,-0.004174296,0.001223051,0.00553046,-0.210291822,-0.246004623,-9.804111854
5.49,1.799999952,35,25.75718689,0.015903547,-79.78280478,40.45904354,266.4965116,0.000703576,0.016585996,-0.668815613,0.743243039,-0.000354132,0.00111697,0.020141193,-0.003006904,0.002889669,0.006648086,-0.210103286,-0.24282213,-9.803411357
5.69,1.899999976,33,25.73965836,0,-79.78280478,40.45904354,266.4985054,0.000714259,0.016608519,-0.668807745,0.743249476,6.86E-05,0.000985016,0.01986352,0.001641484,-0.004306581,-0.003579841,-0.207016029,-0.242498048,-9.801456048
5.79,1.899999976,35,25.74842262,0.015903547,-79.78280466,40.45904347,266.5167496,0.000710365,0.016589334,-0.668805063,0.743252456,0.001592902,0.000801738,0.020189463,-0.001717735,-0.001108412,-0.001741922,-0.213031041,-0.24383664,-9.804610621
6,1.799999952,37,25.74341393,0.015903547,-79.78280466,40.45904347,266.5187456,0.000690038,0.016581165,-0.668799043,0.743257999,0.002154406,0.000864516,0.01974433,0.002342378,-0.00219281,-0.00160956,-0.213117672,-0.24372262,-9.805319304
6.09,1.700000048,43,25.7471714,0.015903547,-79.78280454,40.45904338,266.537589,0.000696705,0.016572814,-0.668794751,0.743262053,0.00655631,0.000945471,0.020565958,0.004839138,-0.000496287,-0.004426835,-0.209125668,-0.244284482,-9.805100033
6.29,1.700000048,46,25.74591827,0.007951774,-79.78280453,40.45904338,266.5396174,0.000690717,0.016562013,-0.668782532,0.743273258,0.006867036,0.000355518,0.020353228,-0.002218054,0.00230227,0.006496622,-0.208226713,-0.246592762,-9.804380241
6.39,1.700000048,51,25.75217819,0.015903547,-79.78280441,40.45904331,266.5589266,0.000697007,0.016545596,-0.668791711,0.74326545,0.00520145,0.000481284,0.020689874,4.32E-05,-0.000622544,0.006007376,-0.209444506,-0.246227128,-9.802709692
6.59,1.600000024,51,25.74466705,0.015903547,-79.78280427,40.45904325,266.5756215,0.000724265,0.016555343,-0.668788493,0.743268073,0.005380635,0.003209587,0.021195264,0.001865281,-0.00224829,-0.002822456,-0.207063647,-0.246073255,-9.801571823
6.69,1.5,50,25.74591827,0.007951774,-79.78280427,40.45904324,266.5797526,0.000703949,0.016549481,-0.668802738,0.743255436,0.006132675,0.00249217,0.020641824,-0.004898629,0.002066853,0.008347606,-0.211311558,-0.243978527,-9.803723599
6.89,1.5,48,25.75092697,0.023855321,-79.78280414,40.45904318,266.5967531,0.000681099,0.016557343,-0.668804288,0.743253887,0.005480372,0.002508063,0.020925705,0.005418931,-0.001847746,-0.007244661,-0.21036959,-0.242031477,-9.802784536
6.99,1.5,48,25.74967575,0.031807095,-79.78280401,40.4590431,266.6162454,0.000671293,0.016560268,-0.668815315,0.743243814,0.005312429,0.002444097,0.021462094,0.002212249,-0.00062492,-0.005140116,-0.208655935,-0.246219911,-9.799938696
7.2,1.399999976,46,25.7471714,0.007951774,-79.78280401,40.4590431,266.6183529,0.000647755,0.016544612,-0.668827713,0.743233085,0.005743519,0.002319667,0.021010948,0.003216698,-0.001868208,0.001160555,-0.211037251,-0.244353954,-9.804542794
7.29,1.399999976,45,25.7471714,0,-79.78280388,40.45904306,266.6380837,0.000606191,0.016531218,-0.668825567,0.74323535,-0.000921445,0.002308593,0.020916636,0.003699359,-0.001332749,-0.000957345,-0.207986996,-0.243815992,-9.800651472
7.49,1.5,43,25.74967575,0.031807095,-79.78280388,40.45904306,266.6401526,0.000601521,0.016543422,-0.668813229,0.743246198,-0.000628039,0.002049566,0.02062188,-0.003508742,0.002698315,0.001959417,-0.205849053,-0.244992507,-9.80136834
7.6,1.5,35,25.74091148,0.270360321,-79.78280372,40.45904298,266.6608605,0.000601157,0.016534092,-0.668844938,0.743217885,0.003498501,0.005891965,0.023080815,-0.00828564,0.003697771,0.013804747,-0.211976587,-0.249994526,-9.799710655
7.8,1.5,30,25.71712112,0.318070948,-79.78280371,40.45904298,266.6631176,0.000604705,0.016531829,-0.668857932,0.743206203,0.00350683,0.006482605,0.022317689,0.004217832,-0.006330079,-0.006642652,-0.202883381,-0.245293785,-9.805009986
7.89,1.700000048,24,25.71712112,0.318070948,-79.78280359,40.45904289,266.6867673,0.000614816,0.016519746,-0.668873668,0.743192315,0.005951228,0.004442468,0.028380891,0.005018408,-0.001361362,-0.001583226,-0.210132303,-0.235087634,-9.8022922
8.09,1.600000024,13,25.72212982,0.318070948,-79.78280346,40.45904284,266.7061995,0.000612801,0.016522918,-0.668830156,0.743231356,-0.000275236,0.002955316,0.029924902,-0.001122632,0.001742061,-0.000415289,-0.204330841,-0.254045203,-9.800926291
8.2,1.600000024,7,25.7208786,0.318070948,-79.78280345,40.45904284,266.7120939,0.000623369,0.016502665,-0.668859363,0.743205488,0.001081894,0.002171166,0.029289105,0.001616139,0.003372357,-0.004186661,-0.209375545,-0.251633683,-9.805712821
8.4,1.799999952,0,25.71712112,0.349878043,-79.78280332,40.45904276,266.7318394,0.000611781,0.016495338,-0.668874145,0.743192375,0.002707435,0.002225055,0.030410862,-0.005068331,-0.003240229,0.005245396,-0.213282673,-0.236367846,-9.802639525
8.49,1.799999952,355,25.71086121,0.389636934,-79.78280316,40.4590427,266.752987,0.000584533,0.016507082,-0.668874383,0.743191957,-0.001377923,0.006577224,0.027074647,-0.000908784,0.000863725,0.004759441,-0.214519834,-0.240915865,-9.799589617
8.69,1.799999952,354,25.70209694,0.453251123,-79.78280315,40.45904271,266.7556651,0.000591344,0.016513158,-0.668887973,0.74317956,-0.001651199,0.006747487,0.026828721,0.003980957,0.00189523,-0.008371899,-0.21261768,-0.245974547,-9.801152578
8.79,1.899999976,350,23.61618042,24.98447418,-79.78280302,40.45904263,266.7765062,0.000726943,0.016666368,-0.669201493,0.742893755,0.005364325,0.011308816,0.024547878,0.035162073,-0.056696355,-0.036386166,-0.204245911,-0.250257852,-9.797596301
8.99,1.899999976,348,25.69082832,0.421444029,-79.78280301,40.45904263,266.7789897,0.000832686,0.017001612,-0.669068158,0.74300611,-0.003280383,0.006228581,0.024546308,-0.046857584,-0.02191945,0.035024099,-0.237487587,-0.289771288,-9.764024513
9.09,1.799999952,354,25.71461678,0.270360321,-79.78280289,40.45904255,266.7996568,0.000629304,0.0167941,-0.669082761,0.742997885,0.002653511,0.004275561,0.024815896,0.006329465,-0.035818495,0.007376096,-0.283574647,-0.245496884,-9.776642804
9.29,1.799999952,351,25.55185127,1.216621399,-79.78280288,40.45904255,266.8020875,0.000725754,0.016866602,-0.669242561,0.742852271,0.003454261,0.001697239,0.022938113,0.00955289,0.013274414,0.038045853,-0.232954588,-0.216250518,-9.80775233
9.39,1.899999976,353,25.68456841,0.421444029,-79.78280276,40.45904248,266.8220835,0.000718628,0.016883748,-0.66919452,0.742895067,-0.001989151,-0.000966881,0.020232597,0.006239821,0.003000881,0.006587123,-0.201906933,-0.230976786,-9.804928125
9.59,1.899999976,352,25.69082832,0.540720642,-79.78280264,40.45904243,266.8407242,0.000607247,0.016907193,-0.669193804,0.742895305,-0.001026572,0.001740944,0.022175033,-0.005195288,-0.000605805,-0.003469788,-0.28829969,-0.274341016,-9.777160867
9.7,2.099999905,355,25.52305412,2.528664112,-79.78280263,40.45904243,266.8450689,0.000620061,0.016721917,-0.669206202,0.742888391,-0.008090494,0.005534679,0.022003308,-0.025547855,-0.075746082,-0.017790759,-0.171590435,-0.254914665,-9.813206613
9.89,2.200000048,355,25.27264404,5.351543903,-79.78280251,40.45904236,266.863377,0.000663882,0.016782733,-0.669168413,0.742920995,-0.002135439,0.001853359,0.022654886,0.009837183,-0.004953202,-0.010420368,-0.190581552,-0.217149436,-9.799119501
10,2.099999905,2,25.20127678,6.464792252,-79.78280237,40.45904229,266.8820512,0.00084241,0.016708426,-0.669342935,0.742765307,0.004185513,0.002610951,0.020218165,-0.040245675,0.00651123,0.021419397,-0.200232528,-0.221356599,-9.821138946
10.19,2.099999905,1,24.95462227,9.001407623,-79.78280237,40.45904228,266.8838009,0.000924888,0.016999207,-0.66939795,0.742708981,0.00234991,-0.002786118,0.015041841,0.04443327,0.027573349,0.000832033,-0.201654827,-0.198302837,-9.821494457
10.29,2.200000048,5,24.81689644,10.69513607,-79.78280228,40.45904224,266.9012977,0.002461694,0.017761411,-0.669660628,0.742450833,-0.00026308,-0.00239349,0.018603374,0.079286046,0.002473788,-0.042978011,-0.223543403,-0.267291028,-9.876494536
10.49,2.299999952,5,24.57274628,13.51801586,-79.78280228,40.45904224,266.9032752,0.00329988,0.018102577,-0.669947267,0.742180645,-0.005373448,-0.00582416,0.014458957,0.066090614,0.047474489,-0.066317394,-0.174100846,-0.310993045,-9.819729767
10.59,2.400000095,6,24.39746094,15.44234467,-79.78280216,40.45904217,266.9231756,0.005274942,0.01700554,-0.669981062,0.742164731,-0.002356375,0.001278678,0.025430999,-0.109190606,0.058756433,-0.028875759,-0.06131426,-0.25483116,-9.817209617
10.79,2.5,7,24.07943916,19.13196754,-79.78280216,40.45904216,266.9259483,0.006832075,0.015741579,-0.669878125,0.742272854,0.006448534,-0.00946358,0.038192206,-0.085724629,0.025166707,0.028825497,-0.255966963,-0.279311953,-9.848439596
10.89,2.5,5,23.960495,20.68256378,-79.78280207,40.45904208,266.946457,0.002851446,0.00941819,-0.666539073,0.745405257,-0.005055416,0.040063102,0.071635967,-0.127138302,-0.121014766,-0.053759567,0.07885756,-0.375021189,-9.795069135
11.1,2.5,5,23.62494469,24.84134102,-79.78280196,40.45904179,266.9600509,-0.005081469,0.002652444,-0.661824107,0.749637365,0.004506636,0.047938488,0.142721877,-0.255423576,0.087615997,-0.135520026,0.130112014,0.038315096,-10.56559826
11.19,2.400000095,7,24.11700058,17.50185394,-79.78280189,40.45904179,266.9793531,-0.013106501,-0.005964813,-0.658487678,0.752453744,0.029060925,0.065054497,0.24978934,-0.13699621,0.098217547,-0.031183252,0.045920697,0.35884114,-10.79921908
11.39,2.5,7,23.91542053,19.927145,-79.78280156,40.45904169,267.0464934,-0.005093052,-0.007744314,-0.657754064,0.753175855,0.06092435,0.09210567,0.279208776,0.132572696,0.168170244,0.07708402,-0.003267488,0.385178314,-9.834820261
11.49,2.5,5,23.88161469,20.50762558,-79.78280093,40.45904189,267.0893097,0.008461758,-0.00654531,-0.660560608,0.750696599,0.058330558,0.104913347,0.200277553,-0.120969132,0.085257135,-0.004408865,0.125477118,0.257290316,-9.662394642
11.7,2.5,11,23.89413643,20.0782299,-79.7828008,40.45904184,267.1107864,0.006090178,-0.01060366,-0.661987424,0.749415278,0.083096578,0.111307391,0.228654464,-0.067166753,0.060072362,-0.028161565,0.284898749,0.320742071,-10.04146437
11.79,2.599999905,12,23.93545341,19.6011219,-79.78280007,40.45904162,267.1999627,-0.001355868,-0.016193479,-0.664490521,0.747120023,0.07833593,0.11733671,0.21662466,0.022816822,0.06300389,0.048796088,0.260948809,0.420589199,-9.921850219
11.99,2.599999905,12,23.69505882,22.82159042,-79.78279993,40.45904157,267.2214845,-0.001409595,-0.018113708,-0.664586246,0.746990681,0.078018618,0.110975444,0.207625756,0.004943909,0.100927055,-0.05403316,0.120763093,0.358563506,-9.764706883
12.1,2.700000048,10,23.74889755,20.80979156,-79.78279968,40.45904138,267.2590171,-0.000938165,-0.020946609,-0.664236784,0.747228146,0.087580328,0.095391216,0.237547996,-0.008241323,0.092811756,-0.014167987,0.079321546,0.186567219,-10.01737267
12.29,2.700000048,11,23.74263763,21.67653656,-79.78279946,40.45904127,267.311592,-0.003851852,-0.027119935,-0.66100508,0.749881327,0.082613742,0.078562751,0.269341982,0.007024892,-0.02397532,-0.015051439,0.122067899,0.266136715,-9.88744988
12.39,2.799999952,14,23.79647636,20.42015457,-79.78279905,40.45904106,267.3812153,-0.003153675,-0.030074945,-0.659359574,0.751219451,0.064569298,0.065064377,0.296657826,-0.006330744,-0.023150224,-0.013035372,0.167206796,0.304735647,-9.97014939
12.59,2.900000095,15,23.8402977,19.9907589,-79.78279878,40.45904096,267.4237566,-0.002181494,-0.029512076,-0.659559965,0.751069248,0.047388899,0.063117147,0.299064069,0.045899242,0.037862588,-0.068039685,0.15972934,0.473024324,-9.960585684
12.69,2.799999952,14,23.8715992,19.56931496,-79.78279872,40.45904095,267.4542807,-0.000529515,-0.027245695,-0.659669697,0.751061499,0.030453174,0.051194992,0.305279236,0.0658492,-0.054060392,-0.04003546,0.199379876,0.408664168,-9.862112725
12.89,2.900000095,13,23.82276917,20.42810631,-79.78279848,40.45904079,267.5400531,-0.000462637,-0.020520173,-0.660624087,0.750436187,0.029425345,0.021664343,0.314206053,0.044508014,0.071165457,0.034960926,0.159047336,0.368509876,-9.787623875
12.99,3,12,23.9191761,19.09220886,-79.7827982,40.45904071,267.6344409,-0.00072735,-0.018585311,-0.660919309,0.750226438,0.020656665,0.019398241,0.335116376,-0.021512996,-0.055902485,0.029648971,0.042920253,0.470122022,-9.850668554
13.19,3,12,23.95423508,20.76208115,-79.78279819,40.4590407,267.6638612,-0.000970737,-0.019921534,-0.660639763,0.750438154,0.027576026,0.012696862,0.212791288,-0.070097186,-0.019638877,-0.014484981,0.157756179,0.38530593,-8.664417018
13.29,3,14,23.60866737,23.84737015,-79.78279797,40.4590405,267.7166232,-0.003642861,-0.011612415,-0.660720646,0.750533283,0.060580365,0.016353124,0.065894062,-0.011705861,-0.067478247,-0.058181856,0.262290891,0.296496993,-8.4974603
13.5,3.099999905,11,23.56109047,23.9905014,-79.78279795,40.45904044,267.7257509,-0.005621833,-0.012366531,-0.660548329,0.750660598,0.067948228,0.01463011,0.12192546,-0.050577924,-0.000170542,-0.02886253,-0.068613293,0.450496135,-10.11641281
13.59,3,10,23.3532505,26.94061089,-79.78279766,40.45904017,267.8230642,-0.007061781,-0.01811949,-0.660639822,0.750451207,0.109865571,0.040771612,0.383976592,-0.108213827,0.162608147,-0.117160343,0.126230706,0.477220798,-10.94371197
13.79,3,9,23.27311897,27.59265518,-79.78279761,40.4590401,267.8691204,-0.00786221,-0.024211707,-0.660481751,0.750410497,0.111289139,0.039322776,0.529963844,-0.049467698,0.118005052,0.077644788,0.097296837,0.35645416,-11.14144141
13.89,3,5,23.08781433,29.2704792,-79.78279713,40.45903969,267.9972453,-0.00906508,-0.026131617,-0.659508228,0.751188338,0.126939733,0.053795868,0.818251009,0.017483091,-0.011606984,-0.133365691,0.187538661,0.336789243,-11.35818483
14.1,3,5,23.00643158,29.64421272,-79.78279698,40.4590396,268.0959213,-0.007613125,-0.020983318,-0.658831179,0.751959622,0.122768427,0.055270175,0.987558661,0.137292445,-0.017554268,0.069749065,0.183454838,0.433772843,-11.64316175
14.19,3,4,22.99391174,31.22661591,-79.78279692,40.45903954,268.2054291,-0.006331441,-0.018285232,-0.657450616,0.753249168,0.115960801,0.051970752,1.191961751,0.076498166,0.106833957,-0.137187302,0.128583525,0.431950339,-11.85354925
14.4,2.900000095,3,22.65836143,34.11310959,-79.78279671,40.45903938,268.498889,-0.007129156,-0.022098433,-0.654880881,0.755375326,0.11945351,0.07288924,1.612250663,-0.044525579,-0.160775229,0.031810738,0.233843365,0.255036872,-12.10695003
14.5,3,3,22.7560215,32.0933609,-79.78279638,40.45903916,268.889725,-0.011535188,-0.02349172,-0.656986594,0.75344795,0.147981627,0.099776979,2.088090226,0.091399066,-0.140553683,0.115551315,0.344988501,0.428417414,-12.32684744
14.69,2.900000095,4,22.45052147,35.71141815,-79.78279629,40.45903914,269.1099262,-0.012519214,-0.019212583,-0.658634663,0.752113342,0.141982895,0.112303146,2.307962013,0.088468008,-0.049990173,0.005884486,0.222303392,0.589009438,-12.04769084
14.8,3,3,22.91628456,28.88084221,-79.78279597,40.45903905,269.6428528,-0.002871711,-0.012583192,-0.660266578,0.750920534,0.113402711,0.108047916,2.771455401,0.149299011,0.105934963,-0.009928023,0.126777612,0.34971126,-12.2789412
14.99,3,3,22.98389435,27.70397949,-79.78279586,40.45903905,269.9272914,0.005116454,-0.011375085,-0.660557687,0.750671744,0.092973982,0.138926288,2.904584775,0.090540841,0.043173738,0.001603255,0.178800071,0.348244596,-11.34599222
15.19,3.099999905,3,23.18923187,25.4456768,-79.78279535,40.45903882,270.5923057,0.008356273,-0.0054114,-0.659310758,0.75180459,0.090743614,0.18548958,3.115700477,0.09133859,-0.085509516,0.023389587,0.223582726,0.240627469,-10.48069084
15.29,3.099999905,7,23.32320023,23.56905746,-79.7827952,40.45903874,270.9057245,0.006652704,-0.002212777,-0.658255279,0.752762198,0.111107597,0.181175227,3.151221722,-0.049641062,-0.110007688,0.046358436,0.242170184,0.281426763,-10.33105123
15.39,3.200000048,6,23.34448624,24.76182365,-79.78279452,40.45903822,271.6454854,0.004083086,-0.001826006,-0.656278551,0.754505455,0.18959818,0.166078795,3.245240227,-0.027844936,0.01040269,0.012330136,0.188638925,0.243419368,-10.15642648
15.59,3.200000048,6,23.38079453,23.51339531,-79.78279397,40.4590378,272.0642209,0.005645367,-0.007241044,-0.655668616,0.754992902,0.24607106,0.191203512,3.279756973,-0.120438196,0.192690358,0.044851277,0.173960677,0.360505805,-9.799582016
15.69,3.200000048,0,23.46718597,22.79773521,-79.78279372,40.45903758,272.3918252,0.006116532,-0.013083989,-0.65538615,0.755155921,0.290707698,0.234850332,3.266964383,-0.17892313,0.094059944,0.022342129,0.303707853,0.349137356,-9.703561379
15.89,3.299999952,2,23.32820892,24.89700508,-79.78279322,40.4590372,273.0492454,0.003383539,-0.018342411,-0.655420542,0.755033851,0.36005829,0.262034732,3.192614732,-0.023342622,0.080684051,-0.03959354,0.269365328,0.454430982,-9.558120661
16,3.299999952,3,23.32570457,24.61074066,-79.78279281,40.45903686,273.6509361,0.006734719,-0.022294452,-0.657826364,0.752809525,0.36863243,0.257759391,3.123139536,0.007899629,0.002446024,0.047318816,0.231729651,0.368862207,-9.654715494
16.19,3.299999952,4,23.45591736,23.09990311,-79.7827926,40.45903662,273.9635167,0.005766733,-0.022855014,-0.659247518,0.751556396,0.37531311,0.254828723,3.099995025,0.003893834,-0.107341699,0.069820121,0.226694175,0.12760481,-9.530898364
16.29,3.099999905,7,23.3269577,23.79170799,-79.78279249,40.45903644,274.4927602,0.000129215,-0.025661578,-0.659808695,0.750995398,0.32426672,0.178112447,2.993582728,-0.14991267,0.052179392,-0.015038377,0.128493432,0.210616269,-9.525269834
16.49,3.099999905,7,23.37578583,22.71026611,-79.78279238,40.45903625,274.7931685,-0.000701528,-0.028205434,-0.659657419,0.751036704,0.33011404,0.161426033,2.983573684,0.042404551,0.067358345,-0.073402703,0.161965571,0.320564937,-9.755010445
16.59,2.799999952,9,23.41710472,23.11580658,-79.7827924,40.45903608,275.2633376,0.001328986,-0.022272339,-0.661307514,0.749783039,0.259213667,0.122710005,2.881125513,-0.065776385,0.01144557,0.051692531,0.153431213,0.094525065,-9.62533382
16.79,2.799999952,12,23.40082741,22.94882011,-79.78279236,40.45903595,275.5511556,-0.00067244,-0.022216033,-0.662609756,0.748634994,0.204994925,0.099747623,2.851884805,-0.022322612,-0.065430447,-0.00102668,0.163737954,-0.021935816,-9.541094738
16.89,2.700000048,2,23.18422318,25.11170197,-79.78279197,40.45903544,276.2086749,0.002534662,-0.018663527,-0.66122973,0.749947011,0.179630665,0.084634775,2.808951481,0.123798087,-0.079600863,-0.063473903,0.172545377,-0.01506785,-9.428379716
17.09,2.799999952,354,23.29189873,22.99653053,-79.78279195,40.45903537,276.4902158,0.004289524,-0.014770292,-0.658837736,0.752127826,0.131724474,0.086317489,2.816802838,0.057526674,-0.049349744,-0.05277684,0.363122215,-0.00949882,-9.796582979
17.19,2.799999952,335,23.34198189,22.80568695,-79.7827917,40.45903493,276.8911147,0.003196934,-0.013886224,-0.656847894,0.753888488,0.114142439,0.079444396,2.87475953,0.020095441,0.069789089,-0.094784401,0.310737156,0.059604324,-9.909278705
17.4,2.799999952,320,23.26185036,23.14761353,-79.78279148,40.45903464,277.5432353,0.005164449,-0.018765653,-0.654905319,0.755460262,0.089159963,0.098917026,2.887070601,-0.091949999,0.070596188,0.085153677,0.322047681,-0.194982222,-9.705582762
17.49,2.799999952,281,23.37578583,23.09990311,-79.78279139,40.45903437,278.1966357,0.011109472,-0.027975285,-0.655628026,0.754483938,0.083247558,0.146472839,2.842819538,0.026637329,0.053863138,-0.007368854,0.347542967,-0.065001112,-9.553459845
17.69,2.799999952,272,23.20926476,25.2071228,-79.78279137,40.45903438,278.4793735,0.013489072,-0.024692543,-0.656648695,0.753671646,0.051578913,0.172229368,2.808715666,0.033895317,0.00082091,0.056987777,0.418633086,0.030342874,-9.434112327
17.79,3,257,23.20676041,25.04013634,-79.782791,40.45903442,279.1043344,0.013826146,-0.021542465,-0.657981932,0.752598524,-0.049732165,0.144515307,2.837363053,-0.015056164,0.004593058,-0.022255218,0.356110746,-0.073473577,-9.616554226
17.99,3.099999905,251,23.13414001,26.34422684,-79.78279101,40.45903451,279.3886952,0.014631855,-0.022129556,-0.657837331,0.752692759,-0.063202915,0.139875238,2.851794795,-0.032037623,0.013315834,0.080725275,0.384009383,-0.074593195,-9.817070453
18.09,3.200000048,253,23.20300293,23.99845314,-79.78279109,40.45903441,280.0191512,0.018514799,-0.016208963,-0.658389926,0.752274752,-0.066055948,0.106977089,2.91572334,0.03570652,-0.044927128,0.031454898,0.359211853,0.025992564,-9.949955446
18.29,3.299999952,253,23.27186584,24.60278893,-79.78279117,40.4590345,280.3114266,0.019102229,-0.015707141,-0.658729672,0.751973152,-0.107977225,0.074509723,2.928899636,-0.046012033,-0.020244831,0.104027063,0.257207815,-0.268716872,-9.86695305
18.4,3.200000048,254,23.34072876,23.06014442,-79.78279131,40.45903463,280.9308667,0.016411841,-0.012437231,-0.659359634,0.751545668,-0.125483173,0.066477379,2.917466008,0.018923603,-0.133420393,0.062903948,0.352683437,-0.227267787,-9.813364488
18.59,3.400000095,251,23.41710472,21.27894783,-79.78279145,40.45903472,281.2454085,0.01156466,-0.006598372,-0.659439683,0.751639545,-0.152398936,0.037715356,2.917421016,0.09553013,-0.187095389,-0.09045507,0.336758362,-0.055287786,-9.754605233
18.7,3.5,248,23.45591736,21.22328377,-79.78279166,40.45903496,281.8289571,0.015323554,-0.003489995,-0.657289147,0.753474653,-0.176366005,-0.004148784,2.912212779,-0.010178277,0.092697583,-0.074302241,0.291249044,-0.026416121,-9.826242396
18.89,3.599999905,243,23.33697319,23.02038574,-79.78279178,40.45903505,282.1490369,0.022846978,-0.008952568,-0.656975627,0.753512442,-0.183486031,0.036919476,2.897856813,0.150889665,0.255287558,-0.138215452,0.427727808,-0.052143295,-9.650415452
19,3.599999905,244,23.384552,21.97870255,-79.78279203,40.45903533,282.7634625,0.027068883,-0.012390609,-0.657759905,0.752639234,-0.156947672,0.137986633,2.923526363,0.174646452,0.13950783,-0.034419294,0.655211431,-0.043836137,-9.842207633
19.19,3.700000048,245,23.4947319,22.73412132,-79.78279207,40.45903544,283.0559487,0.03005684,-0.008050296,-0.658199489,0.752200365,-0.162802817,0.151370222,2.908802757,0.140288427,-0.01704541,0.036032844,0.522552653,-0.130482445,-9.648443186
19.29,3.799999952,254,23.43588448,21.55725861,-79.78279212,40.45903574,283.6494431,0.027863819,-0.011451486,-0.660185874,0.750497997,-0.222244797,0.176462098,2.845267951,-0.087755919,0.102218226,0.008661518,0.604135198,-0.257024852,-9.436321989
19.49,4,253,23.32194901,22.14569092,-79.78279211,40.45903588,283.9332013,0.028785683,-0.015999267,-0.660248399,0.750324845,-0.215839929,0.201435351,2.806733133,-0.083453357,0.029740384,0.01067053,0.670681044,-0.293283729,-9.320790948
19.59,4.300000191,252,23.29189873,22.43990517,-79.78279199,40.45903624,284.5216832,0.033139948,-0.017294645,-0.657756388,0.752302587,-0.236637531,0.271562064,2.806623282,0.070787907,0.016789384,0.029668102,0.837301693,-0.356313205,-9.741813864
19.8,4.5,253,23.26310158,23.47363663,-79.78279194,40.45903644,284.8035703,0.039945289,-0.014918972,-0.656414866,0.753194153,-0.278467141,0.288690441,2.800146533,0.064827763,-0.044665664,0.019385276,1.015550554,-0.588387112,-9.761702583
19.9,4.5,258,23.44339752,21.02449036,-79.78279178,40.45903682,285.3863721,0.050875552,-0.005504956,-0.654440582,0.754379869,-0.35349068,0.344279829,2.796143263,0.192562878,-0.010722566,-0.053348288,0.92600834,-0.487694696,-9.790279096
20.09,4.800000191,261,23.18297005,24.53917503,-79.78279166,40.45903706,285.6756272,0.057738848,-0.005376855,-0.654173136,0.754118562,-0.391228687,0.351773542,2.765681568,-0.022280581,0.286555797,-0.051274337,0.829279021,-0.485897627,-9.453311659
20.19,5,257,23.14540863,23.85532188,-79.78279146,40.4590375,286.2264371,0.06046943,-0.016084611,-0.659873664,0.748766661,-0.386256823,0.424102743,2.673205422,-0.101123713,-0.174856469,0.201034397,1.054171048,-0.632638986,-9.362804947
20.39,5.199999809,256,23.49848747,19.86353111,-79.78279133,40.45903803,286.7896066,0.057569481,0.004900703,-0.660927415,0.748222411,-0.376982606,0.355105457,2.651060828,0.111429065,0.095802873,-0.099434294,1.076428913,-0.474190953,-9.493491971
20.49,5.599999905,260,23.73387337,16.69077301,-79.78279091,40.45903815,287.0843377,0.062141702,0.001722303,-0.660236001,0.748481095,-0.380145165,0.350309334,2.594593705,-0.120935291,0.146368921,-0.00556898,0.920143071,-0.541030878,-9.106898046
20.61,5.699999809,256,23.54105759,19.30690765,-79.78279078,40.4590383,287.3438458,0.067517824,-0.007550949,-0.659617841,0.748524249,-0.367584231,0.368344706,2.508380304,-0.112848677,0.096984573,0.095913783,0.888524837,-0.664738226,-8.953818524
20.8,5.800000191,254,23.53229332,19.95100021,-79.78279069,40.45903864,287.8589349,0.073833264,-0.013724172,-0.660741568,0.746847391,-0.299428993,0.401147032,2.372742775,-0.077606454,-0.126254335,0.190800712,1.04872824,-0.729054748,-8.917537721
20.99,5.800000191,253,23.4371376,21.00063515,-79.78279061,40.45903875,288.0959687,0.073211849,-0.012754172,-0.661516011,0.74623996,-0.286205554,0.356753096,2.276032962,0.066537641,-0.028778516,-0.023181932,0.737315767,-0.649070539,-8.784060405
21.09,5.900000095,259,23.5836277,20.61099815,-79.78279057,40.45903889,288.338017,0.072277337,-0.013750388,-0.661990106,0.745892763,-0.269445139,0.321626163,2.225879624,-0.010530248,0.067748532,-0.200008586,0.851995527,-0.392755136,-8.910660226
21.29,5.900000095,261,23.49598312,20.50762558,-79.78279058,40.45903905,288.7730432,0.067889176,-0.012342965,-0.662526548,0.745853424,-0.231555237,0.235942846,2.075339452,0.104283452,-0.176802278,0.127345935,0.802803048,-0.82166697,-9.0437411
21.39,5.699999809,261,23.36952591,21.91508865,-79.78279056,40.45903914,288.9994836,0.064782739,-0.011901856,-0.662224412,0.746405005,-0.209796176,0.207155601,2.053542725,-0.099747039,-0.009307411,-0.026862383,0.951041001,-0.587225562,-9.109585426
21.59,5.900000095,261,23.48721886,20.33268547,-79.78279067,40.45903924,289.4267755,0.061214279,-0.014895793,-0.661371827,0.747407734,-0.163078285,0.152502162,1.980870265,0.082093991,0.045164283,0.077485144,0.818007855,-0.574491752,-9.106078851
21.69,5.800000191,255,23.2956562,22.06617355,-79.78279088,40.4590393,289.8105168,0.060081933,-0.014893942,-0.659739494,0.748940647,-0.161040891,0.103906741,1.864761704,-0.079856291,-0.067214243,-0.00838137,1.035823728,-0.443315243,-9.084338318
21.89,5.699999809,255,23.47845459,19.87943459,-79.78279091,40.45903931,290.0160928,0.058605962,-0.014557363,-0.658969879,0.749741375,-0.14186764,0.10838363,1.871748245,0.057667676,0.018979009,0.026581073,1.067785486,-0.635302758,-9.442276209
21.99,5.599999905,255,23.50099182,20.05437469,-79.78279105,40.45903933,290.2015996,0.058753438,-0.013646976,-0.658768952,0.749923587,-0.143073456,0.070648309,1.826547784,0.109938495,0.094742171,-0.014251772,0.704453831,-0.560534558,-9.186327792
22.1,5.5,255,23.50099182,19.74425507,-79.78279122,40.45903925,290.6061826,0.057785381,-0.006471096,-0.659557998,0.749401271,-0.14897425,0.055528217,1.789048485,0.127485543,0.027715057,-0.202223897,0.864411943,-0.391395074,-9.185966434